File: rplScripts/paint-BaSO4.txt
#FORMAT      : EMSA/MAS Spectral Data File
#VERSION     : 1.0
#TITLE       : paint-BaSO4
#DATE        : 19-MAY-2011
#TIME        : 05:07
#OWNER       :
#NPOINTS     : 2048.0
#NCOLUMNS    : 1.0
#XUNITS      : keV
#YUNITS      : counts
#DATATYPE    : XY
#XPERCHAN    : 0.01
#OFFSET      : -0.2
#SIGNALTYPE  : EDS
#CHOFFSET    : 20.0
#LIVETIME    : 56.4907
#REALTIME    : 109.366
#BEAMKV      : 20.0
#PROBECUR    : 0.0
#MAGCAM      : 441.0
#XTILTSTGE   : 0.0
#AZIMANGLE   : 0.0
#ELEVANGLE   : 35.0
#XPOSITION mm: 46.0662
#YPOSITION mm: 51.8563
#ZPOSITION mm: 18.7728
##OXINSTPT   : 4
##OXINSTSTROB: 48.56
##OXINSTELEMS: 6,8,16,27,38,56,82
##OXINSTLABEL: 6, 0.277, C
##OXINSTLABEL: 8, 0.525, O
##OXINSTLABEL: 16, 2.308, S
##OXINSTLABEL: 16, 2.464, S
##OXINSTLABEL: 27, 6.930, Co
##OXINSTLABEL: 27, 7.650, Co
##OXINSTLABEL: 27, 0.776, Co
##OXINSTLABEL: 27, 0.694, Co
##OXINSTLABEL: 27, 0.678, Co
##OXINSTLABEL: 38, 14.165, Sr
##OXINSTLABEL: 38, 15.836, Sr
##OXINSTLABEL: 38, 16.085, Sr
##OXINSTLABEL: 38, 1.807, Sr
##OXINSTLABEL: 38, 1.649, Sr
##OXINSTLABEL: 38, 1.582, Sr
##OXINSTLABEL: 38, 0.114, Sr
##OXINSTLABEL: 56, 4.466, Ba
##OXINSTLABEL: 56, 4.828, Ba
##OXINSTLABEL: 56, 5.157, Ba
##OXINSTLABEL: 56, 4.331, Ba
##OXINSTLABEL: 56, 5.531, Ba
##OXINSTLABEL: 56, 5.797, Ba
##OXINSTLABEL: 56, 3.954, Ba
##OXINSTLABEL: 56, 0.780, Ba
##OXINSTLABEL: 56, 0.601, Ba
##OXINSTLABEL: 82, 10.552, Pb
##OXINSTLABEL: 82, 12.614, Pb
##OXINSTLABEL: 82, 12.623, Pb
##OXINSTLABEL: 82, 11.349, Pb
##OXINSTLABEL: 82, 14.765, Pb
##OXINSTLABEL: 82, 15.101, Pb
##OXINSTLABEL: 82, 9.185, Pb
##OXINSTLABEL: 82, 2.345, Pb
##OXINSTLABEL: 82, 2.653, Pb
##OXINSTLABEL: 82, 1.823, Pb
##OXINSTLABEL: 82, 0.293, Pb
##OXINSTLABEL: 82, 0.276, Pb
#SPECTRUM    : Spectral Data Starts Here
-0.20000, 0.0
-0.18000, 0.0
-0.16000, 0.0
-0.14000, 0.0
-0.12000, 0.0
-0.10000, 0.0
-0.08000, 0.0
-0.06000, 11.0
-0.04000, 117.0
-0.02000, 660.0
0.00000, 1680.0
0.02000, 2620.0
0.04000, 2086.0
0.06000, 818.0
0.08000, 250.0
0.10000, 389.0
0.12000, 784.0
0.14000, 1409.0
0.16000, 1645.0
0.18000, 1370.0
0.20000, 1400.0
0.22000, 2395.0
0.24000, 5111.0
0.26000, 8065.0
0.28000, 7648.0
0.30000, 4149.0
0.32000, 1585.0
0.34000, 791.0
0.36000, 804.0
0.38000, 905.0
0.40000, 1112.0
0.42000, 1439.0
0.44000, 2439.0
0.46000, 5304.0
0.48000, 13408.0
0.50000, 27509.0
0.52000, 36894.0
0.54000, 30544.0
0.56000, 15957.0
0.58000, 7187.0
0.60000, 4228.0
0.62000, 3072.0
0.64000, 2069.0
0.66000, 1552.0
0.68000, 1464.0
0.70000, 1583.0
0.72000, 1852.0
0.74000, 2366.0
0.76000, 3007.0
0.78000, 3327.0
0.80000, 2962.0
0.82000, 2308.0
0.84000, 1675.0
0.86000, 1338.0
0.88000, 1287.0
0.90000, 1341.0
0.92000, 1403.0
0.94000, 1712.0
0.96000, 2033.0
0.98000, 2165.0
1.00000, 2115.0
1.02000, 2089.0
1.04000, 2041.0
1.06000, 1991.0
1.08000, 1818.0
1.10000, 1697.0
1.12000, 1604.0
1.14000, 1547.0
1.16000, 1532.0
1.18000, 1543.0
1.20000, 1511.0
1.22000, 1566.0
1.24000, 1613.0
1.26000, 1687.0
1.28000, 1745.0
1.30000, 1616.0
1.32000, 1640.0
1.34000, 1675.0
1.36000, 1686.0
1.38000, 1705.0
1.40000, 1787.0
1.42000, 1864.0
1.44000, 1841.0
1.46000, 1940.0
1.48000, 1984.0
1.50000, 1975.0
1.52000, 1989.0
1.54000, 1959.0
1.56000, 1952.0
1.58000, 1945.0
1.60000, 1928.0
1.62000, 1951.0
1.64000, 1987.0
1.66000, 2041.0
1.68000, 2037.0
1.70000, 2150.0
1.72000, 2235.0
1.74000, 2450.0
1.76000, 2721.0
1.78000, 3272.0
1.80000, 3655.0
1.82000, 3830.0
1.84000, 3619.0
1.86000, 3211.0
1.88000, 2922.0
1.90000, 2609.0
1.92000, 2382.0
1.94000, 2278.0
1.96000, 2191.0
1.98000, 2180.0
2.00000, 2123.0
2.02000, 2096.0
2.04000, 2185.0
2.06000, 2191.0
2.08000, 2178.0
2.10000, 2152.0
2.12000, 2192.0
2.14000, 2180.0
2.16000, 2364.0
2.18000, 2569.0
2.20000, 3259.0
2.22000, 4707.0
2.24000, 8238.0
2.26000, 15529.0
2.28000, 25339.0
2.30000, 34026.0
2.32000, 36111.0
2.34000, 30307.0
2.36000, 20352.0
2.38000, 11885.0
2.40000, 7129.0
2.42000, 5567.0
2.44000, 5314.0
2.46000, 5413.0
2.48000, 4909.0
2.50000, 3941.0
2.52000, 3090.0
2.54000, 2405.0
2.56000, 2112.0
2.58000, 2014.0
2.60000, 1898.0
2.62000, 1990.0
2.64000, 1932.0
2.66000, 1944.0
2.68000, 1968.0
2.70000, 1986.0
2.72000, 2025.0
2.74000, 1958.0
2.76000, 2077.0
2.78000, 1943.0
2.80000, 1934.0
2.82000, 1867.0
2.84000, 1935.0
2.86000, 1884.0
2.88000, 1903.0
2.90000, 1731.0
2.92000, 1845.0
2.94000, 1730.0
2.96000, 1756.0
2.98000, 1754.0
3.00000, 1756.0
3.02000, 1742.0
3.04000, 1793.0
3.06000, 1831.0
3.08000, 1865.0
3.10000, 1799.0
3.12000, 1855.0
3.14000, 1774.0
3.16000, 1718.0
3.18000, 1740.0
3.20000, 1679.0
3.22000, 1651.0
3.24000, 1687.0
3.26000, 1644.0
3.28000, 1706.0
3.30000, 1690.0
3.32000, 1687.0
3.34000, 1703.0
3.36000, 1644.0
3.38000, 1669.0
3.40000, 1683.0
3.42000, 1644.0
3.44000, 1672.0
3.46000, 1599.0
3.48000, 1631.0
3.50000, 1590.0
3.52000, 1622.0
3.54000, 1581.0
3.56000, 1590.0
3.58000, 1577.0
3.60000, 1612.0
3.62000, 1587.0
3.64000, 1547.0
3.66000, 1557.0
3.68000, 1594.0
3.70000, 1538.0
3.72000, 1584.0
3.74000, 1599.0
3.76000, 1505.0
3.78000, 1542.0
3.80000, 1491.0
3.82000, 1551.0
3.84000, 1582.0
3.86000, 1565.0
3.88000, 1723.0
3.90000, 1983.0
3.92000, 2222.0
3.94000, 2421.0
3.96000, 2490.0
3.98000, 2492.0
4.00000, 2295.0
4.02000, 1957.0
4.04000, 1719.0
4.06000, 1631.0
4.08000, 1522.0
4.10000, 1483.0
4.12000, 1438.0
4.14000, 1427.0
4.16000, 1410.0
4.18000, 1433.0
4.20000, 1453.0
4.22000, 1513.0
4.24000, 1497.0
4.26000, 1574.0
4.28000, 1640.0
4.30000, 1840.0
4.32000, 2118.0
4.34000, 2709.0
4.36000, 4122.0
4.38000, 6914.0
4.40000, 11448.0
4.42000, 17528.0
4.44000, 23827.0
4.46000, 27680.0
4.48000, 27614.0
4.50000, 23766.0
4.52000, 17607.0
4.54000, 11400.0
4.56000, 6625.0
4.58000, 3818.0
4.60000, 2426.0
4.62000, 1787.0
4.64000, 1637.0
4.66000, 1562.0
4.68000, 1676.0
4.70000, 1807.0
4.72000, 2430.0
4.74000, 3677.0
4.76000, 5672.0
4.78000, 8358.0
4.80000, 11341.0
4.82000, 13300.0
4.84000, 14105.0
4.86000, 13073.0
4.88000, 11066.0
4.90000, 8718.0
4.92000, 6788.0
4.94000, 5264.0
4.96000, 4104.0
4.98000, 3319.0
5.00000, 2678.0
5.02000, 2245.0
5.04000, 2033.0
5.06000, 2139.0
5.08000, 2662.0
5.10000, 3357.0
5.12000, 4388.0
5.14000, 5142.0
5.16000, 5384.0
5.18000, 5225.0
5.20000, 4373.0
5.22000, 3517.0
5.24000, 2605.0
5.26000, 1911.0
5.28000, 1516.0
5.30000, 1287.0
5.32000, 1169.0
5.34000, 1105.0
5.36000, 1148.0
5.38000, 1138.0
5.40000, 1150.0
5.42000, 1190.0
5.44000, 1348.0
5.46000, 1661.0
5.48000, 1928.0
5.50000, 2309.0
5.52000, 2585.0
5.54000, 2653.0
5.56000, 2416.0
5.58000, 2182.0
5.60000, 1774.0
5.62000, 1415.0
5.64000, 1176.0
5.66000, 1059.0
5.68000, 1072.0
5.70000, 1068.0
5.72000, 1188.0
5.74000, 1348.0
5.76000, 1409.0
5.78000, 1552.0
5.80000, 1593.0
5.82000, 1489.0
5.84000, 1413.0
5.86000, 1257.0
5.88000, 1155.0
5.90000, 1043.0
5.92000, 984.0
5.94000, 983.0
5.96000, 990.0
5.98000, 943.0
6.00000, 995.0
6.02000, 927.0
6.04000, 844.0
6.06000, 868.0
6.08000, 842.0
6.10000, 831.0
6.12000, 829.0
6.14000, 787.0
6.16000, 783.0
6.18000, 785.0
6.20000, 818.0
6.22000, 771.0
6.24000, 818.0
6.26000, 811.0
6.28000, 822.0
6.30000, 816.0
6.32000, 817.0
6.34000, 806.0
6.36000, 765.0
6.38000, 756.0
6.40000, 812.0
6.42000, 800.0
6.44000, 781.0
6.46000, 793.0
6.48000, 788.0
6.50000, 769.0
6.52000, 769.0
6.54000, 791.0
6.56000, 787.0
6.58000, 732.0
6.60000, 797.0
6.62000, 712.0
6.64000, 783.0
6.66000, 779.0
6.68000, 759.0
6.70000, 839.0
6.72000, 820.0
6.74000, 866.0
6.76000, 909.0
6.78000, 801.0
6.80000, 820.0
6.82000, 802.0
6.84000, 822.0
6.86000, 786.0
6.88000, 754.0
6.90000, 743.0
6.92000, 759.0
6.94000, 757.0
6.96000, 740.0
6.98000, 728.0
7.00000, 720.0
7.02000, 737.0
7.04000, 700.0
7.06000, 754.0
7.08000, 714.0
7.10000, 711.0
7.12000, 756.0
7.14000, 750.0
7.16000, 790.0
7.18000, 781.0
7.20000, 748.0
7.22000, 698.0
7.24000, 773.0
7.26000, 707.0
7.28000, 694.0
7.30000, 710.0
7.32000, 697.0
7.34000, 714.0
7.36000, 702.0
7.38000, 679.0
7.40000, 694.0
7.42000, 676.0
7.44000, 676.0
7.46000, 655.0
7.48000, 658.0
7.50000, 663.0
7.52000, 697.0
7.54000, 684.0
7.56000, 614.0
7.58000, 677.0
7.60000, 643.0
7.62000, 644.0
7.64000, 628.0
7.66000, 633.0
7.68000, 655.0
7.70000, 671.0
7.72000, 645.0
7.74000, 642.0
7.76000, 644.0
7.78000, 643.0
7.80000, 661.0
7.82000, 656.0
7.84000, 645.0
7.86000, 633.0
7.88000, 640.0
7.90000, 630.0
7.92000, 626.0
7.94000, 620.0
7.96000, 564.0
7.98000, 626.0
8.00000, 603.0
8.02000, 640.0
8.04000, 596.0
8.06000, 647.0
8.08000, 593.0
8.10000, 608.0
8.12000, 564.0
8.14000, 603.0
8.16000, 581.0
8.18000, 570.0
8.20000, 606.0
8.22000, 557.0
8.24000, 594.0
8.26000, 570.0
8.28000, 570.0
8.30000, 586.0
8.32000, 544.0
8.34000, 567.0
8.36000, 544.0
8.38000, 592.0
8.40000, 553.0
8.42000, 545.0
8.44000, 533.0
8.46000, 578.0
8.48000, 543.0
8.50000, 555.0
8.52000, 559.0
8.54000, 601.0
8.56000, 551.0
8.58000, 550.0
8.60000, 588.0
8.62000, 581.0
8.64000, 549.0
8.66000, 524.0
8.68000, 529.0
8.70000, 514.0
8.72000, 513.0
8.74000, 540.0
8.76000, 558.0
8.78000, 525.0
8.80000, 574.0
8.82000, 550.0
8.84000, 562.0
8.86000, 530.0
8.88000, 554.0
8.90000, 575.0
8.92000, 553.0
8.94000, 588.0
8.96000, 551.0
8.98000, 536.0
9.00000, 554.0
9.02000, 557.0
9.04000, 544.0
9.06000, 557.0
9.08000, 552.0
9.10000, 513.0
9.12000, 534.0
9.14000, 506.0
9.16000, 529.0
9.18000, 523.0
9.20000, 504.0
9.22000, 530.0
9.24000, 553.0
9.26000, 533.0
9.28000, 533.0
9.30000, 573.0
9.32000, 545.0
9.34000, 520.0
9.36000, 531.0
9.38000, 518.0
9.40000, 506.0
9.42000, 480.0
9.44000, 472.0
9.46000, 496.0
9.48000, 471.0
9.50000, 485.0
9.52000, 504.0
9.54000, 463.0
9.56000, 487.0
9.58000, 482.0
9.60000, 526.0
9.62000, 498.0
9.64000, 518.0
9.66000, 487.0
9.68000, 475.0
9.70000, 489.0
9.72000, 482.0
9.74000, 455.0
9.76000, 464.0
9.78000, 432.0
9.80000, 435.0
9.82000, 450.0
9.84000, 440.0
9.86000, 415.0
9.88000, 429.0
9.90000, 431.0
9.92000, 455.0
9.94000, 430.0
9.96000, 446.0
9.98000, 429.0
10.00000, 449.0
10.02000, 430.0
10.04000, 449.0
10.06000, 437.0
10.08000, 448.0
10.10000, 412.0
10.12000, 429.0
10.14000, 419.0
10.16000, 403.0
10.18000, 392.0
10.20000, 387.0
10.22000, 422.0
10.24000, 380.0
10.26000, 393.0
10.28000, 403.0
10.30000, 403.0
10.32000, 427.0
10.34000, 412.0
10.36000, 409.0
10.38000, 448.0
10.40000, 422.0
10.42000, 432.0
10.44000, 470.0
10.46000, 509.0
10.48000, 548.0
10.50000, 599.0
10.52000, 590.0
10.54000, 594.0
10.56000, 553.0
10.58000, 536.0
10.60000, 526.0
10.62000, 476.0
10.64000, 404.0
10.66000, 434.0
10.68000, 389.0
10.70000, 396.0
10.72000, 394.0
10.74000, 354.0
10.76000, 362.0
10.78000, 343.0
10.80000, 355.0
10.82000, 350.0
10.84000, 331.0
10.86000, 348.0
10.88000, 361.0
10.90000, 351.0
10.92000, 360.0
10.94000, 342.0
10.96000, 336.0
10.98000, 340.0
11.00000, 355.0
11.02000, 336.0
11.04000, 330.0
11.06000, 340.0
11.08000, 325.0
11.10000, 336.0
11.12000, 343.0
11.14000, 337.0
11.16000, 344.0
11.18000, 329.0
11.20000, 319.0
11.22000, 320.0
11.24000, 337.0
11.26000, 326.0
11.28000, 308.0
11.30000, 307.0
11.32000, 334.0
11.34000, 302.0
11.36000, 338.0
11.38000, 304.0
11.40000, 295.0
11.42000, 349.0
11.44000, 311.0
11.46000, 302.0
11.48000, 311.0
11.50000, 296.0
11.52000, 314.0
11.54000, 310.0
11.56000, 306.0
11.58000, 310.0
11.60000, 293.0
11.62000, 292.0
11.64000, 308.0
11.66000, 273.0
11.68000, 306.0
11.70000, 280.0
11.72000, 304.0
11.74000, 289.0
11.76000, 280.0
11.78000, 263.0
11.80000, 271.0
11.82000, 307.0
11.84000, 269.0
11.86000, 267.0
11.88000, 279.0
11.90000, 275.0
11.92000, 277.0
11.94000, 292.0
11.96000, 264.0
11.98000, 277.0
12.00000, 259.0
12.02000, 260.0
12.04000, 248.0
12.06000, 267.0
12.08000, 264.0
12.10000, 277.0
12.12000, 271.0
12.14000, 274.0
12.16000, 261.0
12.18000, 240.0
12.20000, 235.0
12.22000, 251.0
12.24000, 273.0
12.26000, 234.0
12.28000, 242.0
12.30000, 258.0
12.32000, 258.0
12.34000, 246.0
12.36000, 251.0
12.38000, 253.0
12.40000, 248.0
12.42000, 250.0
12.44000, 237.0
12.46000, 265.0
12.48000, 265.0
12.50000, 261.0
12.52000, 280.0
12.54000, 310.0
12.56000, 317.0
12.58000, 301.0
12.60000, 302.0
12.62000, 323.0
12.64000, 307.0
12.66000, 285.0
12.68000, 296.0
12.70000, 260.0
12.72000, 275.0
12.74000, 272.0
12.76000, 227.0
12.78000, 213.0
12.80000, 227.0
12.82000, 228.0
12.84000, 226.0
12.86000, 219.0
12.88000, 216.0
12.90000, 217.0
12.92000, 233.0
12.94000, 235.0
12.96000, 202.0
12.98000, 208.0
13.00000, 197.0
13.02000, 215.0
13.04000, 207.0
13.06000, 203.0
13.08000, 206.0
13.10000, 208.0
13.12000, 200.0
13.14000, 199.0
13.16000, 184.0
13.18000, 195.0
13.20000, 205.0
13.22000, 195.0
13.24000, 220.0
13.26000, 181.0
13.28000, 194.0
13.30000, 188.0
13.32000, 191.0
13.34000, 182.0
13.36000, 182.0
13.38000, 182.0
13.40000, 187.0
13.42000, 167.0
13.44000, 197.0
13.46000, 176.0
13.48000, 191.0
13.50000, 149.0
13.52000, 178.0
13.54000, 175.0
13.56000, 179.0
13.58000, 182.0
13.60000, 155.0
13.62000, 161.0
13.64000, 158.0
13.66000, 172.0
13.68000, 158.0
13.70000, 160.0
13.72000, 166.0
13.74000, 167.0
13.76000, 161.0
13.78000, 177.0
13.80000, 171.0
13.82000, 162.0
13.84000, 148.0
13.86000, 132.0
13.88000, 153.0
13.90000, 167.0
13.92000, 168.0
13.94000, 182.0
13.96000, 164.0
13.98000, 170.0
14.00000, 166.0
14.02000, 166.0
14.04000, 165.0
14.06000, 158.0
14.08000, 168.0
14.10000, 178.0
14.12000, 178.0
14.14000, 152.0
14.16000, 172.0
14.18000, 158.0
14.20000, 144.0
14.22000, 142.0
14.24000, 152.0
14.26000, 148.0
14.28000, 157.0
14.30000, 150.0
14.32000, 136.0
14.34000, 131.0
14.36000, 147.0
14.38000, 132.0
14.40000, 141.0
14.42000, 126.0
14.44000, 148.0
14.46000, 141.0
14.48000, 136.0
14.50000, 145.0
14.52000, 148.0
14.54000, 140.0
14.56000, 121.0
14.58000, 116.0
14.60000, 124.0
14.62000, 136.0
14.64000, 133.0
14.66000, 146.0
14.68000, 146.0
14.70000, 115.0
14.72000, 140.0
14.74000, 124.0
14.76000, 129.0
14.78000, 133.0
14.80000, 132.0
14.82000, 115.0
14.84000, 134.0
14.86000, 124.0
14.88000, 111.0
14.90000, 121.0
14.92000, 127.0
14.94000, 115.0
14.96000, 113.0
14.98000, 119.0
15.00000, 110.0
15.02000, 114.0
15.04000, 109.0
15.06000, 103.0
15.08000, 107.0
15.10000, 108.0
15.12000, 114.0
15.14000, 119.0
15.16000, 107.0
15.18000, 101.0
15.20000, 110.0
15.22000, 96.0
15.24000, 101.0
15.26000, 100.0
15.28000, 114.0
15.30000, 97.0
15.32000, 96.0
15.34000, 101.0
15.36000, 97.0
15.38000, 108.0
15.40000, 105.0
15.42000, 89.0
15.44000, 118.0
15.46000, 94.0
15.48000, 91.0
15.50000, 89.0
15.52000, 94.0
15.54000, 84.0
15.56000, 97.0
15.58000, 93.0
15.60000, 88.0
15.62000, 95.0
15.64000, 91.0
15.66000, 87.0
15.68000, 93.0
15.70000, 81.0
15.72000, 96.0
15.74000, 89.0
15.76000, 97.0
15.78000, 88.0
15.80000, 92.0
15.82000, 79.0
15.84000, 81.0
15.86000, 82.0
15.88000, 86.0
15.90000, 85.0
15.92000, 75.0
15.94000, 68.0
15.96000, 67.0
15.98000, 95.0
16.00000, 81.0
16.02000, 73.0
16.04000, 98.0
16.06000, 80.0
16.08000, 79.0
16.10000, 72.0
16.12000, 68.0
16.14000, 84.0
16.16000, 68.0
16.18000, 74.0
16.20000, 74.0
16.22000, 73.0
16.24000, 71.0
16.26000, 65.0
16.28000, 61.0
16.30000, 75.0
16.32000, 79.0
16.34000, 69.0
16.36000, 68.0
16.38000, 71.0
16.40000, 75.0
16.42000, 70.0
16.44000, 72.0
16.46000, 66.0
16.48000, 68.0
16.50000, 66.0
16.52000, 68.0
16.54000, 59.0
16.56000, 62.0
16.58000, 61.0
16.60000, 63.0
16.62000, 57.0
16.64000, 60.0
16.66000, 61.0
16.68000, 57.0
16.70000, 62.0
16.72000, 63.0
16.74000, 65.0
16.76000, 59.0
16.78000, 55.0
16.80000, 64.0
16.82000, 64.0
16.84000, 57.0
16.86000, 54.0
16.88000, 53.0
16.90000, 58.0
16.92000, 61.0
16.94000, 49.0
16.96000, 53.0
16.98000, 51.0
17.00000, 51.0
17.02000, 42.0
17.04000, 45.0
17.06000, 56.0
17.08000, 56.0
17.10000, 59.0
17.12000, 60.0
17.14000, 44.0
17.16000, 53.0
17.18000, 38.0
17.20000, 37.0
17.22000, 54.0
17.24000, 48.0
17.26000, 46.0
17.28000, 48.0
17.30000, 37.0
17.32000, 49.0
17.34000, 49.0
17.36000, 50.0
17.38000, 43.0
17.40000, 39.0
17.42000, 30.0
17.44000, 44.0
17.46000, 42.0
17.48000, 34.0
17.50000, 49.0
17.52000, 42.0
17.54000, 34.0
17.56000, 41.0
17.58000, 38.0
17.60000, 35.0
17.62000, 35.0
17.64000, 37.0
17.66000, 42.0
17.68000, 39.0
17.70000, 30.0
17.72000, 38.0
17.74000, 40.0
17.76000, 30.0
17.78000, 24.0
17.80000, 33.0
17.82000, 35.0
17.84000, 33.0
17.86000, 34.0
17.88000, 27.0
17.90000, 38.0
17.92000, 36.0
17.94000, 27.0
17.96000, 33.0
17.98000, 32.0
18.00000, 36.0
18.02000, 22.0
18.04000, 33.0
18.06000, 35.0
18.08000, 25.0
18.10000, 28.0
18.12000, 31.0
18.14000, 29.0
18.16000, 26.0
18.18000, 25.0
18.20000, 31.0
18.22000, 29.0
18.24000, 28.0
18.26000, 28.0
18.28000, 27.0
18.30000, 28.0
18.32000, 22.0
18.34000, 25.0
18.36000, 17.0
18.38000, 19.0
18.40000, 20.0
18.42000, 23.0
18.44000, 26.0
18.46000, 26.0
18.48000, 21.0
18.50000, 22.0
18.52000, 19.0
18.54000, 20.0
18.56000, 26.0
18.58000, 25.0
18.60000, 17.0
18.62000, 15.0
18.64000, 21.0
18.66000, 18.0
18.68000, 21.0
18.70000, 23.0
18.72000, 18.0
18.74000, 16.0
18.76000, 15.0
18.78000, 14.0
18.80000, 17.0
18.82000, 14.0
18.84000, 17.0
18.86000, 16.0
18.88000, 14.0
18.90000, 14.0
18.92000, 13.0
18.94000, 17.0
18.96000, 16.0
18.98000, 17.0
19.00000, 17.0
19.02000, 15.0
19.04000, 15.0
19.06000, 19.0
19.08000, 17.0
19.10000, 16.0
19.12000, 13.0
19.14000, 15.0
19.16000, 14.0
19.18000, 15.0
19.20000, 15.0
19.22000, 11.0
19.24000, 12.0
19.26000, 9.0
19.28000, 12.0
19.30000, 10.0
19.32000, 14.0
19.34000, 9.0
19.36000, 9.0
19.38000, 14.0
19.40000, 10.0
19.42000, 8.0
19.44000, 7.0
19.46000, 16.0
19.48000, 12.0
19.50000, 8.0
19.52000, 9.0
19.54000, 11.0
19.56000, 8.0
19.58000, 9.0
19.60000, 10.0
19.62000, 9.0
19.64000, 5.0
19.66000, 7.0
19.68000, 6.0
19.70000, 5.0
19.72000, 7.0
19.74000, 6.0
19.76000, 10.0
19.78000, 6.0
19.80000, 9.0
19.82000, 7.0
19.84000, 3.0
19.86000, 3.0
19.88000, 2.0
19.90000, 3.0
19.92000, 4.0
19.94000, 5.0
19.96000, 3.0
19.98000, 3.0
20.00000, 3.0
20.02000, 2.0
20.04000, 3.0
20.06000, 3.0
20.08000, 7.0
20.10000, 5.0
20.12000, 4.0
20.14000, 2.0
20.16000, 3.0
20.18000, 4.0
20.20000, 4.0
20.22000, 7.0
20.24000, 4.0
20.26000, 1.0
20.27000, 3.0
#ENDOFDATA   :