File: FIB-620-spec/FIB-EDAX-SiLi-10-sq-mm-17-pt-1-mm-WD.msa
#FORMAT      : EMSA/MAS Spectral Data File
#VERSION     : 1.0
#TITLE       : FIB EDAX SiLi 10 sq. mm. 17.1 mm WD
#DATE        : 05-MAR-2014
#TIME        : 04:50
#OWNER       : Unknown
#NPOINTS     : 4096
#NCOLUMNS    : 1
#XUNITS      : eV
#YUNITS      : counts
#DATATYPE    : Y
#XPERCHAN    : 9.968
#OFFSET      : 6.2
#BEAMKV      : 15
#SIGNALTYPE  : EDS
#ELEVANGLE   : 35
#AZIMANGLE   : 225
#LIVETIME    : 100
#PROBECUR    : 1
#TAUWIND     : 0
#TDEADLYR    : 0.00001
#TACTLYR     : 0.5
#TALWIND     : 0.004
#CHOFFSET    : 0.0
#XLABEL      : Energy (eV)
#YLABEL      : Counts
#EDSDET      : SIUTW
##SPECIMEN   : FIB EDAX SiLi 10 sq. mm. 17.1 mm WD
##DET_HASH   : 8bd54cba-bdb1-2809-7cdf-aba568fbcc57
##CALIB_HASH : b8861be6-a184-7f00-6a18-216669d0f27f
#SPECTRUM    :
0,
0,
0,
9,
32,
103,
187,
297,
676,
1816,
1845,
710,
255,
187,
186,
262,
253,
349,
401,
265,
218,
211,
188,
208,
254,
331,
406,
576,
582,
896,
2499,
4560,
3767,
1559,
769,
532,
479,
454,
455,
451,
469,
482,
540,
500,
551,
531,
539,
535,
586,
564,
560,
551,
612,
560,
582,
538,
563,
650,
600,
600,
596,
589,
598,
570,
579,
563,
529,
526,
542,
569,
588,
533,
577,
569,
568,
546,
568,
545,
511,
551,
548,
567,
716,
970,
988,
822,
690,
570,
634,
634,
619,
660,
1323,
3425,
7261,
9621,
8171,
4662,
2843,
3254,
4035,
3684,
2516,
1522,
1164,
1162,
1223,
1102,
784,
644,
633,
690,
559,
439,
406,
358,
366,
376,
426,
412,
409,
392,
326,
363,
307,
349,
309,
328,
324,
334,
323,
352,
329,
330,
360,
331,
333,
338,
326,
299,
344,
310,
313,
282,
277,
305,
286,
291,
325,
287,
257,
293,
303,
308,
305,
309,
277,
273,
300,
300,
273,
272,
277,
276,
289,
266,
261,
245,
240,
218,
269,
239,
249,
256,
240,
254,
261,
252,
251,
241,
246,
221,
253,
231,
243,
235,
225,
266,
248,
245,
251,
218,
221,
221,
205,
221,
238,
240,
227,
226,
191,
234,
186,
216,
216,
198,
204,
211,
190,
209,
196,
208,
204,
196,
199,
208,
185,
192,
199,
185,
194,
187,
219,
180,
169,
180,
177,
171,
187,
189,
170,
182,
191,
187,
157,
179,
172,
169,
162,
168,
189,
184,
183,
156,
161,
145,
163,
148,
162,
163,
156,
155,
134,
148,
159,
143,
160,
134,
154,
131,
141,
143,
151,
178,
286,
476,
884,
1381,
1836,
2047,
1906,
1321,
831,
439,
204,
159,
121,
145,
129,
130,
148,
105,
130,
126,
138,
104,
114,
128,
107,
135,
125,
110,
126,
120,
159,
206,
271,
316,
360,
281,
247,
191,
134,
117,
107,
94,
103,
80,
113,
113,
101,
105,
96,
98,
89,
91,
105,
99,
95,
95,
106,
93,
69,
87,
91,
94,
82,
105,
94,
92,
94,
90,
68,
97,
90,
70,
83,
65,
79,
79,
88,
89,
76,
79,
72,
79,
76,
93,
81,
79,
71,
64,
70,
57,
62,
68,
51,
75,
60,
59,
66,
65,
86,
60,
72,
80,
69,
58,
62,
74,
66,
71,
60,
77,
77,
69,
73,
67,
66,
68,
57,
52,
67,
66,
62,
49,
53,
57,
72,
69,
52,
52,
57,
61,
64,
52,
62,
48,
59,
59,
47,
50,
41,
57,
59,
55,
49,
47,
47,
47,
43,
31,
44,
32,
47,
35,
40,
42,
39,
49,
44,
46,
48,
37,
34,
41,
31,
30,
40,
36,
32,
34,
26,
28,
31,
36,
34,
32,
24,
30,
28,
30,
36,
22,
32,
23,
29,
41,
29,
25,
21,
33,
24,
29,
23,
22,
18,
34,
23,
14,
28,
15,
24,
27,
26,
16,
25,
20,
19,
11,
20,
10,
13,
17,
10,
16,
7,
7,
11,
7,
11,
18,
11,
12,
8,
2,
3,
3,
5,
11,
3,
5,
5,
4,
2,
5,
3,
3,
2,
0,
0,
1,
0,
0,
0,
0,
0,
0,
0,
0,
0,
0,
0,
0,
0,
0,
0,
0,
0,
0,
0,
0,
0,
0,
0,
0,
0,
0,
0,
0,
0,
0,
0,
0,
0,
0,
0,
0,
0,
0,
0,
0,
0,
0,
0,
0,
0,
0,
0,
0,
0,
0,
0,
0,
0,
0,
0,
0,
0,
0,
0,
0,
0,
0,
0,
0,
0,
0,
0,
0,
0,
0,
0,
0,
0,
0,
0,
0,
0,
0,
0,
0,
0,
0,
0,
0,
0,
0,
0,
0,
0,
0,
0,
0,
0,
0,
0,
0,
0,
0,
0,
0,
0,
0,
0,
0,
0,
0,
0,
0,
0,
0,
0,
0,
0,
0,
0,
0,
0,
0,
0,
0,
0,
0,
0,
0,
0,
0,
0,
0,
0,
0,
0,
0,
0,
0,
0,
0,
0,
0,
0,
0,
0,
0,
0,
0,
0,
0,
0,
0,
0,
0,
0,
0,
0,
0,
0,
0,
0,
0,
0,
0,
0,
0,
0,
0,
0,
0,
0,
0,
0,
0,
0,
0,
0,
0,
0,
0,
0,
0,
0,
0,
0,
0,
0,
0,
0,
0,
0,
0,
0,
0,
0,
0,
0,
0,
0,
0,
0,
0,
0,
0,
0,
0,
0,
0,
0,
0,
0,
0,
0,
0,
0,
0,
0,
0,
0,
0,
0,
0,
0,
0,
0,
0,
0,
0,
0,
0,
0,
0,
0,
0,
0,
0,
0,
0,
0,
0,
0,
0,
0,
0,
0,
0,
0,
0,
0,
0,
0,
0,
0,
0,
0,
0,
0,
0,
0,
0,
0,
0,
0,
0,
0,
0,
0,
0,
0,
0,
0,
0,
0,
0,
0,
0,
0,
0,
0,
0,
0,
0,
0,
0,
0,
0,
0,
0,
0,
0,
0,
0,
0,
0,
0,
0,
0,
0,
0,
0,
0,
0,
0,
0,
0,
0,
0,
0,
0,
0,
0,
0,
0,
0,
0,
0,
0,
0,
0,
0,
0,
0,
0,
0,
0,
0,
0,
0,
0,
0,
0,
0,
0,
0,
0,
0,
0,
0,
0,
0,
0,
0,
0,
0,
0,
0,
0,
0,
0,
0,
0,
0,
0,
0,
0,
0,
0,
0,
0,
0,
0,
0,
0,
0,
0,
0,
0,
0,
0,
0,
0,
0,
0,
0,
0,
0,
0,
0,
0,
0,
0,
0,
0,
0,
0,
0,
0,
0,
0,
0,
0,
0,
0,
0,
0,
0,
0,
0,
0,
0,
0,
0,
0,
0,
0,
0,
0,
0,
0,
0,
0,
0,
0,
0,
0,
0,
0,
0,
0,
0,
0,
0,
0,
0,
0,
0,
0,
0,
0,
0,
0,
0,
0,
0,
0,
0,
0,
0,
0,
0,
0,
0,
0,
0,
0,
0,
0,
0,
0,
0,
0,
0,
0,
0,
0,
0,
0,
0,
0,
0,
0,
0,
0,
0,
0,
0,
0,
0,
0,
0,
0,
0,
0,
0,
0,
0,
0,
0,
0,
0,
0,
0,
0,
0,
0,
0,
0,
0,
0,
0,
0,
0,
0,
0,
0,
0,
0,
0,
0,
0,
0,
0,
0,
0,
0,
0,
0,
0,
0,
0,
0,
0,
0,
0,
0,
0,
0,
0,
0,
0,
0,
0,
0,
0,
0,
0,
0,
0,
0,
0,
0,
0,
0,
0,
0,
0,
0,
0,
0,
0,
0,
0,
0,
0,
0,
0,
0,
0,
0,
0,
0,
0,
0,
0,
0,
0,
0,
0,
0,
0,
0,
0,
0,
0,
0,
0,
0,
0,
0,
0,
0,
0,
0,
0,
0,
0,
0,
0,
0,
0,
0,
0,
0,
0,
0,
0,
0,
0,
0,
0,
0,
0,
0,
0,
0,
0,
0,
0,
0,
0,
0,
0,
0,
0,
0,
0,
0,
0,
0,
0,
0,
0,
0,
0,
0,
0,
0,
0,
0,
0,
0,
0,
0,
0,
0,
0,
0,
0,
0,
0,
0,
0,
0,
0,
0,
0,
0,
0,
0,
0,
0,
0,
0,
0,
0,
0,
0,
0,
0,
0,
0,
0,
0,
0,
0,
0,
0,
0,
0,
0,
0,
0,
0,
0,
0,
0,
0,
0,
0,
0,
0,
0,
0,
0,
0,
0,
0,
0,
0,
0,
0,
0,
0,
0,
0,
0,
0,
0,
0,
0,
0,
0,
0,
0,
0,
0,
0,
0,
0,
0,
0,
0,
0,
0,
0,
0,
0,
0,
0,
0,
0,
0,
0,
0,
0,
0,
0,
0,
0,
0,
0,
0,
0,
0,
0,
0,
0,
0,
0,
0,
0,
0,
0,
0,
0,
0,
0,
0,
0,
0,
0,
0,
0,
0,
0,
0,
0,
0,
0,
0,
0,
0,
0,
0,
0,
0,
0,
0,
0,
0,
0,
0,
0,
0,
0,
0,
0,
0,
0,
0,
0,
0,
0,
0,
0,
0,
0,
0,
0,
0,
0,
0,
0,
0,
0,
0,
0,
0,
0,
0,
0,
0,
0,
0,
0,
0,
0,
0,
0,
0,
0,
0,
0,
0,
0,
0,
0,
0,
0,
0,
0,
0,
0,
0,
0,
0,
0,
0,
0,
0,
0,
0,
0,
0,
0,
0,
0,
0,
0,
0,
0,
0,
0,
0,
0,
0,
0,
0,
0,
0,
0,
0,
0,
0,
0,
0,
0,
0,
0,
0,
0,
0,
0,
0,
0,
0,
0,
0,
0,
0,
0,
0,
0,
0,
0,
0,
0,
0,
#ENDOFDATA   :